Energy (MeV)	LaBr\d3\n:Ce (2987)	Uncertainty
0.10100	6.2637	0.71573
0.10400	6.6619	0.76123
0.10800	7.1931	0.82193
0.11100	7.2850	0.83243
0.11500	6.7812	0.77486
0.11900	5.6983	0.65112
0.12200	6.4282	0.73452
0.12600	7.5927	0.86759
0.13000	8.2749	0.94555
0.13400	8.6608	0.98964
0.13800	8.8738	1.0140
0.14200	9.0850	1.0381
0.14500	8.9723	1.0252
0.14900	9.5380	1.0899
0.15300	9.5614	1.0926
0.15800	10.284	1.1751
0.16200	10.951	1.2514
0.16600	10.988	1.2556
0.17000	11.543	1.3190
0.17400	10.385	1.1866
0.17900	10.297	1.1766
0.18300	9.0009	1.0285
0.18700	9.5433	1.0905
0.19200	9.9525	1.1373
0.19600	9.1987	1.0511
0.20000	10.520	1.2021
0.20500	10.978	1.2545
0.21000	10.180	1.1633
0.21400	10.274	1.1740
0.21900	10.143	1.1591
0.22300	9.8078	1.1207
0.22800	8.7446	0.99924
0.23300	8.6855	0.99249
0.23800	8.8789	1.0146
0.24300	9.9961	1.1422
0.24700	10.770	1.2307
0.25200	9.7148	1.1101
0.25700	9.4584	1.0808
0.26200	8.5319	0.97493
0.26700	7.9107	0.90395
0.27200	7.5077	0.85790
0.27700	7.5057	0.85767
0.28200	7.6748	0.87699
0.28800	8.0607	0.92110
0.29300	7.7163	0.88174
0.29800	8.6730	0.99106
0.30300	7.9938	0.91345
0.30900	7.9578	0.90934
0.31400	6.6894	0.76440
0.31900	7.6972	0.87956
0.32500	8.2796	0.94612
0.33000	9.0069	1.0292
0.33600	10.059	1.1494
0.34100	10.307	1.1777
0.34700	10.664	1.2186
0.35300	10.695	1.2222
0.35800	10.690	1.2216
0.36400	10.962	1.2526
0.37000	11.057	1.2635
0.37600	10.683	1.2207
0.38100	10.269	1.1734
0.38700	9.4216	1.0766
0.39300	9.1943	1.0507
0.39900	8.8648	1.0130
0.40500	8.7260	0.99715
0.41100	8.6624	0.98989
0.41700	8.7760	1.0029
0.42300	9.4055	1.0748
0.42900	9.4607	1.0811
0.43500	9.5362	1.0898
0.44200	9.3886	1.0729
0.44800	8.5231	0.97399
0.45400	7.9867	0.91269
0.46000	9.0013	1.0286
0.46700	9.5927	1.0962
0.47300	9.7832	1.1180
0.47900	10.457	1.1951
0.48600	10.433	1.1923
0.49200	10.347	1.1825
0.49900	10.650	1.2171
0.50500	10.406	1.1892
0.51200	9.8834	1.1295
0.51900	9.0345	1.0325
0.52500	9.2341	1.0553
0.53200	8.4825	0.96940
0.53900	7.6278	0.87172
0.54500	8.4653	0.96745
0.55200	8.4366	0.96417
0.55900	8.7588	1.0010
0.56600	9.2963	1.0624
0.57300	9.5469	1.0911
0.58000	9.5891	1.0959
0.58700	9.5752	1.0943
0.59400	9.4390	1.0788
0.60100	8.8714	1.0139
0.60800	8.4699	0.96805
0.61500	8.0799	0.92348
0.62200	7.8701	0.89952
0.62900	7.2662	0.83051
0.63700	7.4154	0.84757
0.64400	7.3418	0.83917
0.65100	6.6788	0.76340
0.65900	6.4888	0.74169
0.66600	6.5093	0.74404
0.67300	6.3201	0.72243
0.68100	6.3119	0.72150
0.68800	6.2365	0.71290
0.69600	6.2587	0.71545
0.70300	6.4175	0.73362
0.71100	5.8082	0.66398
0.71900	5.9301	0.67794
0.72600	5.7678	0.65939
0.73400	5.1504	0.58883
0.74200	5.2562	0.60094
0.74900	5.0124	0.57308
0.75700	4.5985	0.52577
0.76500	4.5307	0.51803
0.77300	4.4612	0.51011
0.78100	4.3727	0.50001
0.78900	4.1361	0.47298
0.79700	3.9882	0.45608
0.80500	3.7487	0.42870
0.81300	3.6788	0.42072
0.82100	3.6398	0.41629
0.82900	3.6568	0.41825
0.83700	3.3123	0.37887
0.84600	3.2358	0.37014
0.85400	3.1824	0.36405
0.86200	3.0473	0.34861
0.87000	2.8247	0.32317
0.87900	2.7750	0.31750
0.88700	2.8303	0.32386
0.89500	2.6813	0.30683
0.90400	2.6484	0.30309
0.91200	2.6602	0.30447
0.92100	2.6422	0.30243
0.92900	2.6252	0.30050
0.93800	2.5314	0.28981
0.94700	2.6315	0.30130
0.95500	2.4724	0.28310
0.96400	2.3150	0.26512
0.97300	2.3662	0.27100
0.98100	2.2986	0.26329
0.99000	2.1652	0.24805
0.99900	2.1480	0.24611
1.0080	2.0968	0.24028
1.0170	2.0815	0.23857
1.0260	2.0595	0.23608
1.0350	2.0232	0.23196
1.0440	1.9824	0.22732
1.0530	1.9068	0.21869
1.0620	1.8900	0.21680
1.0710	1.8775	0.21542
1.0800	1.8669	0.21425
1.0890	1.9713	0.22628
1.0980	1.9119	0.21952
1.1080	1.9509	0.22405
1.1170	2.0541	0.23596
1.1260	1.9267	0.22139
1.1360	1.9140	0.22000
1.1450	1.9930	0.22915
1.1540	1.8975	0.21824
1.1640	1.9197	0.22087
1.1730	1.9276	0.22186
1.1830	1.9158	0.22059
1.1920	1.8789	0.21641
1.2020	1.8285	0.21071
1.2120	1.8001	0.20752
1.2210	1.8570	0.21418
1.2310	1.7602	0.20312
1.2410	1.8086	0.20881
1.2500	1.6313	0.18844
1.2600	1.5412	0.17813
1.2700	1.5416	0.17828
1.2800	1.5416	0.17839
1.2900	1.5103	0.17489
1.3000	1.4898	0.17264
1.3100	1.4042	0.16283
1.3200	1.3711	0.15911
1.3300	1.3552	0.15740
1.3400	1.3124	0.15255
1.3500	1.3109	0.15251
1.3600	1.2931	0.15058
1.3700	1.2889	0.15023
1.3800	1.2490	0.14572
1.3910	1.2570	0.14682
1.4010	1.3120	0.15341
1.4110	1.2460	0.14586
1.4220	1.2272	0.14384
1.4320	1.2437	0.14596
1.4420	1.1616	0.13650
1.4530	1.1569	0.13615
1.4630	1.1433	0.13474
1.4740	1.0811	0.12761
1.4840	1.0734	0.12690
1.4950	1.0471	0.12401
1.5060	1.0321	0.12246
1.5270	1.0778	0.12838
1.5490	1.0721	0.12824
1.5700	1.0482	0.12594
1.5920	1.0214	0.12333
1.6140	0.99814	0.12119
1.6360	1.0069	0.12299
1.6580	0.96788	0.11898
1.6810	0.95009	0.11765
1.7030	0.91570	0.11425
1.7260	0.90215	0.11352
1.7480	0.87661	0.11128
1.7710	0.86956	0.11148
1.7940	0.90262	0.11696
1.8170	0.85870	0.11254
1.8410	0.83245	0.11050
1.8640	0.82332	0.11072
1.8880	0.80185	0.10942
1.9110	0.77124	0.10682
1.9350	0.76132	0.10720
1.9590	0.73311	0.10504
1.9830	0.70149	0.10239
2.0080	0.70324	0.10476
2.0320	0.73329	0.11151
2.0560	0.70621	0.10975
2.0810	0.68197	0.10852
2.1060	0.66035	0.10772
2.1310	0.64676	0.10827
2.1560	0.62231	0.10702
2.1810	0.61205	0.10825
2.2060	0.57728	0.10510
2.2320	0.56725	0.10655
2.2570	0.54943	0.10645
2.2830	0.52580	0.10531
2.3090	0.51297	0.10630
2.3350	0.50181	0.10768
2.3610	0.48658	0.10821
2.3870	0.46914	0.10821
2.4140	0.45662	0.10947
2.4400	0.43895	0.10930
2.4670	0.41945	0.10870
2.4940	0.40431	0.10911
2.5210	0.39064	0.11753
2.5480	0.38079	0.11457
2.5750	0.37263	0.11211
2.6020	0.39297	0.11823
2.6300	0.38052	0.11913
2.6570	0.36890	0.11550
2.6850	0.35427	0.11092
2.7130	0.34258	0.10726
2.7410	0.33356	0.10443
2.7690	0.32280	0.10106
2.7970	0.30712	0.096153
2.8260	0.29645	0.092815
2.8540	0.28594	0.089525
2.8830	0.27167	0.085056
2.9120	0.26114	0.081758
2.9410	0.25423	0.079597
2.9700	0.24685	0.077286
2.9990	0.23914	0.074871
3.0280	0.22807	0.071404
3.0580	0.22166	0.069399
3.0870	0.21323	0.066760
3.1170	0.20386	0.063827
3.1470	0.19729	0.061769
3.1770	0.18964	0.059373
3.2070	0.18387	0.057567
3.2370	0.17357	0.054343
3.2680	0.18379	0.057543
3.2980	0.17687	0.055377
3.3290	0.16741	0.052413
3.3600	0.16148	0.050556
3.3910	0.15530	0.048624
3.4220	0.14990	0.046930
3.4530	0.14540	0.045523
3.4840	0.13948	0.043669
3.5160	0.13419	0.042013
3.5470	0.13001	0.040705
3.5790	0.12293	0.038487
3.6110	0.11776	0.036870
3.6430	0.11390	0.035662
3.6750	0.10911	0.034161
3.7070	0.10413	0.032601
3.7400	0.099763	0.031235
3.7720	0.095756	0.029980
3.8050	0.089955	0.028164
3.8380	0.086723	0.027152
3.8710	0.082906	0.025957
3.9040	0.080247	0.025125
3.9370	0.076675	0.024006
3.9700	0.073104	0.022888
4.0040	0.069731	0.021832
4.0370	0.067888	0.021255
4.0710	0.064653	0.020242
4.1050	0.062067	0.019433
4.1390	0.059446	0.018612
4.1730	0.056865	0.017804
4.2070	0.053934	0.016886
4.2420	0.051698	0.016186
4.2760	0.049550	0.015514
4.3110	0.046398	0.014527
4.3460	0.040647	0.012726
4.3810	0.038867	0.012169
4.4160	0.037039	0.011597
4.4510	0.035510	0.011118
4.4860	0.034180	0.010702
4.5210	0.032174	0.010074
4.5570	0.030428	0.0095267
4.5930	0.029143	0.0091246
4.6290	0.027936	0.0087465
4.6650	0.026650	0.0083441
4.7010	0.025581	0.0080093
4.7370	0.024542	0.0076840
4.7730	0.023316	0.0073001
4.8100	0.022326	0.0069902
4.8460	0.021470	0.0067221
4.8830	0.020168	0.0063145
4.9200	0.019275	0.0060350
4.9570	0.018491	0.0061474
4.9940	0.017512	0.0058220
5.0310	0.016503	0.0054867
5.0690	0.015692	0.0052168
5.1060	0.014990	0.0049837
5.1440	0.014099	0.0046872
5.1820	0.013533	0.0044992
5.2200	0.012829	0.0042651
5.2580	0.012207	0.0040585
5.2960	0.011689	0.0038861
5.3340	0.011008	0.0036596
5.3730	0.010512	0.0034947
5.4110	0.0099798	0.0033179
5.4500	0.0093962	0.0031239
5.4890	0.0089857	0.0029874
5.5280	0.0085983	0.0028586
5.5670	0.0081789	0.0027192
5.6060	0.0077092	0.0025630
5.6460	0.0072839	0.0024216
5.6850	0.0070781	0.0023532
5.7250	0.0066350	0.0022059
5.7650	0.0063594	0.0021143
5.8040	0.0060820	0.0020221
5.8440	0.0056632	0.0018828
5.8850	0.0053884	0.0017914
5.9250	0.0051771	0.0017212
5.9650	0.0048435	0.0016103
6.0060	0.0045289	0.0015057
6.0470	0.0043619	0.0014502
6.0870	0.0041161	0.0013685
6.1280	0.0038696	0.0012865
6.1690	0.0036325	0.0012077
6.2110	0.0034348	0.0011420
6.2520	0.0033278	0.0011064
6.2930	0.0031048	0.0010322
6.3350	0.0029151	0.00096916
6.3770	0.0027568	0.00091655
6.4190	0.0026204	0.00087118
6.4610	0.0024989	0.00083079
6.5030	0.0023718	0.00078856
6.5450	0.0022529	0.00074902
6.5870	0.0021228	0.00070577
6.6300	0.0020087	0.00066784
6.6720	0.0019024	0.00063249
6.7150	0.0018025	0.00059927
6.7580	0.0017035	0.00056636
6.8010	0.0016183	0.00053802
6.8440	0.0015044	0.00050017
6.8880	0.0014364	0.00051397
6.9310	0.0013631	0.00048776
6.9750	0.0012851	0.00045983
7.0180	0.0012259	0.00043867
7.0620	0.0011439	0.00040932
7.1060	0.0010875	0.00038914
7.1500	0.0010202	0.00036504
7.1940	0.00095572	0.00034198
7.2390	0.00090220	0.00032283
7.2830	0.00085396	0.00030557
7.3280	0.00080092	0.00028659
7.3720	0.00075724	0.00027096
7.4170	0.00071318	0.00025519
7.4620	0.00067298	0.00024081
7.5070	0.00062674	0.00022426
7.5530	0.00059451	0.00021273
7.5980	0.00055875	0.00019993
7.6440	0.00052871	0.00018918
7.6890	0.00049806	0.00017822
7.7350	0.00046547	0.00016656
7.7810	0.00044385	0.00015882
7.8270	0.00041872	0.00014983
7.8730	0.00039777	0.00014233
7.9190	0.00037160	0.00013297
7.9660	0.00034947	0.00012505
8.0120	0.00033241	0.00011894
8.0590	0.00031001	0.00011093
8.1060	0.00029264	0.00010471
8.1530	0.00027749	9.9292e-05
8.2000	0.00025896	9.2664e-05
8.2470	0.00024623	8.8109e-05
8.2940	0.00022857	8.1790e-05
8.3420	0.00021771	7.7903e-05
8.3890	0.00020581	7.3645e-05
8.4370	0.00019289	6.9023e-05
8.4850	0.00018067	6.4649e-05
8.5330	0.00017060	6.1044e-05
8.5810	0.00016117	5.7672e-05
8.6290	0.00015023	5.3758e-05
8.6780	0.00014171	5.0708e-05
8.7260	0.00013213	4.7279e-05
8.7750	0.00012509	4.4760e-05
8.8230	0.00011774	4.2131e-05
8.8720	0.00010932	3.9118e-05
8.9210	0.00010328	3.6955e-05
8.9700	9.5767e-05	3.4268e-05
