Energy (MeV)	LaBr\d3\n:Ce (Q491)	Uncertainty
0.10000	4.5757	0.53171
0.10200	3.5184	0.40883
0.10500	4.2276	0.49124
0.10700	4.2314	0.49169
0.11000	4.3483	0.50527
0.11200	3.9615	0.46032
0.11500	4.7927	0.55692
0.11800	5.2428	0.60922
0.12100	5.9611	0.69269
0.12400	6.2530	0.72661
0.12700	7.5489	0.87719
0.13000	7.8622	0.91360
0.13300	7.7176	0.89680
0.13600	8.2350	0.95693
0.14000	9.0471	1.0513
0.14300	9.0430	1.0508
0.14700	9.4015	1.0925
0.15000	9.3856	1.0906
0.15400	10.453	1.2147
0.15700	10.655	1.2381
0.16100	11.924	1.3856
0.16400	12.048	1.4000
0.16800	12.109	1.4071
0.17100	11.492	1.3355
0.17500	10.567	1.2279
0.17900	10.061	1.1692
0.18300	10.100	1.1737
0.18700	10.272	1.1937
0.19100	11.028	1.2815
0.19500	11.229	1.3049
0.19900	11.241	1.3063
0.20300	10.673	1.2402
0.20800	10.872	1.2634
0.21200	10.639	1.2363
0.21700	10.496	1.2197
0.22100	8.9358	1.0384
0.22600	7.6786	0.89231
0.23000	8.5146	0.98947
0.23500	8.8848	1.0325
0.23900	10.199	1.1852
0.24400	10.654	1.2381
0.24900	10.340	1.2016
0.25400	7.4604	0.86698
0.25900	6.5337	0.75928
0.26400	6.2722	0.72890
0.26900	6.1921	0.71958
0.27400	6.2306	0.72406
0.27900	6.6691	0.77503
0.28500	7.1849	0.83498
0.29000	8.1081	0.94227
0.29600	8.2650	0.96051
0.30100	7.2962	0.84792
0.30700	7.1409	0.82988
0.31200	7.0448	0.81871
0.31800	7.3358	0.85253
0.32300	8.5165	0.98975
0.32900	9.8526	1.1450
0.33500	10.392	1.2078
0.34100	10.420	1.2110
0.34700	10.548	1.2259
0.35300	10.783	1.2531
0.35900	11.142	1.2950
0.36600	11.348	1.3189
0.37200	10.691	1.2425
0.37800	10.389	1.2074
0.38400	9.5210	1.1066
0.39100	9.2630	1.0766
0.39700	9.1181	1.0597
0.40400	8.7732	1.0197
0.41000	9.1346	1.0617
0.41700	8.8163	1.0247
0.42400	9.3827	1.0905
0.43100	8.8509	1.0287
0.43800	8.4616	0.98349
0.44500	8.3147	0.96642
0.45200	8.2768	0.96203
0.45900	7.4944	0.87109
0.46600	8.8010	1.0230
0.47400	9.3986	1.0924
0.48100	10.069	1.1704
0.48800	9.1055	1.0584
0.49500	9.5394	1.1088
0.50300	9.6869	1.1260
0.51000	9.0484	1.0517
0.51800	8.4394	0.98098
0.52600	8.5350	0.99213
0.53400	7.8680	0.91461
0.54200	7.5939	0.88275
0.55000	8.3181	0.96695
0.55700	9.0202	1.0486
0.56600	9.5741	1.1130
0.57400	9.6971	1.1273
0.58200	9.7874	1.1378
0.59000	9.2107	1.0708
0.59900	8.4904	0.98708
0.60700	7.4059	0.86100
0.61600	7.1901	0.83594
0.62400	7.4087	0.86136
0.63300	7.1404	0.83019
0.64100	6.9264	0.80533
0.65000	6.3801	0.74183
0.65900	6.1388	0.71378
0.66800	6.0586	0.70448
0.67700	6.0745	0.70634
0.68600	6.0086	0.69870
0.69500	6.2816	0.73046
0.70400	6.2414	0.72581
0.71300	5.8072	0.67534
0.72300	5.6938	0.66217
0.73200	5.2272	0.60793
0.74200	4.9901	0.58039
0.75100	4.8781	0.56738
0.76100	4.7595	0.55361
0.77000	4.6490	0.54078
0.78000	4.4237	0.51459
0.79000	4.3547	0.50659
0.80000	4.0544	0.47169
0.81000	3.9561	0.46028
0.82000	3.8640	0.44959
0.83000	3.9994	0.46537
0.84000	3.9917	0.46451
0.85000	3.5355	0.41146
0.86100	3.2394	0.37702
0.87100	2.9855	0.34749
0.88200	3.0010	0.34933
0.89200	2.8658	0.33363
0.90300	2.9653	0.34525
0.91300	2.8047	0.32658
0.92400	2.8179	0.32816
0.93400	2.7316	0.31814
0.94500	2.6680	0.31078
0.95600	2.6304	0.30643
0.96700	2.5883	0.30158
0.97800	2.4136	0.28126
0.99000	2.4120	0.28112
1.0010	2.4421	0.35465
1.0120	2.4016	0.34880
1.0230	2.2076	0.32068
1.0350	2.2187	0.32233
1.0460	2.2049	0.32037
1.0580	2.0645	0.30002
1.0700	2.0363	0.29598
1.0820	2.1328	0.31006
1.0930	2.0837	0.30297
1.1050	2.1495	0.31261
1.1170	2.1685	0.31544
1.1290	2.1357	0.31075
1.1410	2.0536	0.29886
1.1540	2.0193	0.29397
1.1660	2.0798	0.30285
1.1780	2.0820	0.30327
1.1900	2.0005	0.29148
1.2030	1.9903	0.29010
1.2150	1.9674	0.28686
1.2280	1.9121	0.27891
1.2410	1.8517	0.27022
1.2540	1.8427	0.26902
1.2660	1.7213	0.25142
1.2790	1.6251	0.23749
1.2920	1.6044	0.23459
1.3050	1.5837	0.23170
1.3180	1.4930	0.21857
1.3320	1.4960	0.21915
1.3450	1.4454	0.21189
1.3580	1.4575	0.21382
1.3710	1.2169	0.17867
1.3850	1.2390	0.18207
1.3980	1.1623	0.17094
1.4120	1.1692	0.17214
1.4260	1.2443	0.18339
1.4400	1.2890	0.19019
1.4530	1.2232	0.18069
1.4670	1.1901	0.17602
1.4810	1.2264	0.18163
1.4950	1.1727	0.17393
1.5090	1.1316	0.16809
1.5240	1.1603	0.17265
1.5380	1.1576	0.17253
1.5530	1.1269	0.16828
1.5670	1.1420	0.17087
1.5820	1.1508	0.17257
1.5960	1.1272	0.16939
1.6110	1.1183	0.16846
1.6250	1.1048	0.16682
1.6400	1.0533	0.15948
1.6550	1.0900	0.16552
1.6700	1.0843	0.16515
1.6850	1.0755	0.16434
1.7000	1.0390	0.15932
1.7150	0.99522	0.15315
1.7310	1.0390	0.16054
1.7460	1.0219	0.15853
1.7610	1.0797	0.16821
1.7760	0.98669	0.15441
1.7920	0.97855	0.15391
1.8080	0.91488	0.14466
1.8240	0.90798	0.14437
1.8390	0.91653	0.14653
1.8550	0.83373	0.13413
1.8710	0.81693	0.13228
1.8870	0.85081	0.13871
1.9030	0.83041	0.13636
1.9190	0.82644	0.13673
1.9350	0.71781	0.11970
1.9520	0.70546	0.11868
1.9680	0.68615	0.11644
1.9850	0.71244	0.12207
2.0010	0.69608	0.14337
2.0340	0.67405	0.14092
2.0680	0.65521	0.13930
2.1010	0.62484	0.13523
2.1360	0.61133	0.13508
2.1700	0.59042	0.13335
2.2050	0.58164	0.13462
2.2400	0.57189	0.13592
2.2750	0.55630	0.13604
2.3110	0.53191	0.13422
2.3470	0.52053	0.13583
2.3830	0.50519	0.13660
2.4190	0.48226	0.13540
2.4560	0.45608	0.13337
2.4930	0.43925	0.13404
2.5310	0.42237	0.14074
2.5690	0.41773	0.13919
2.6070	0.41154	0.13713
2.6450	0.38767	0.12918
2.6840	0.37912	0.12633
2.7230	0.36535	0.12174
2.7620	0.35235	0.11741
2.8010	0.33762	0.11250
2.8410	0.31965	0.10652
2.8810	0.30010	0.10000
2.9220	0.28817	0.09602
2.9630	0.27775	0.092554
3.0040	0.25691	0.085609
3.0480	0.23373	0.077887
3.0930	0.21981	0.073247
3.1380	0.21126	0.070400
3.1830	0.19816	0.066034
3.2290	0.19177	0.063906
3.2750	0.17954	0.059829
3.3220	0.16969	0.056547
3.3690	0.16265	0.054203
3.4160	0.15433	0.051429
3.4630	0.14445	0.048139
3.5110	0.13416	0.044707
3.5590	0.12771	0.042561
3.6070	0.12053	0.040168
3.6560	0.11357	0.037848
3.7050	0.10653	0.035502
3.7540	0.10170	0.033891
3.8040	0.093657 0.031212
3.8540	0.089804 0.029928
3.9040	0.085730 0.028571
3.9550	0.080359 0.026781
4.0060	0.078743 0.028234
4.0570	0.073386 0.026314
4.1090	0.069659 0.024977
4.1610	0.067780 0.024303
4.2130	0.064436 0.023105
4.2660	0.058446 0.020957
4.3190	0.057461 0.020604
4.3720	0.052750 0.018914
4.4260	0.049842 0.017872
4.4800	0.047658 0.017089
4.5340	0.045511 0.016319
4.5880	0.042505 0.015241
4.6430	0.039556 0.014184
4.6990	0.036954 0.013251
4.7540	0.034868 0.012503
4.8100	0.032505 0.011656
4.8660	0.030473 0.010927
4.9230	0.028499 0.010219
4.9800	0.026562 0.0095246
5.0370	0.024941 0.0089435
5.0940	0.023365 0.0083784
5.1520	0.021489 0.0077058
5.2100	0.019997 0.0071709
5.2690	0.018879 0.0067699
5.3280	0.017589 0.0063073
5.3870	0.016328 0.0058550
5.4460	0.015086 0.0054098
5.5060	0.014180 0.0050847
5.5660	0.013140 0.0047121
5.6270	0.012138 0.0043526
5.6870	0.011326 0.0040615
5.7480	0.010327 0.0037033
5.8100	0.0096478 0.0034597
5.8710	0.0089311 0.0032028
5.9340	0.0082385 0.0029543
5.9960	0.0077138 0.0027662
6.0590	0.0071594 0.0025674
6.1220	0.0066836 0.0023968
6.1850	0.0061206 0.0021949
6.2490	0.0057335 0.0020561
6.3130	0.0053141 0.0019057
6.3770	0.0049411 0.0017720
6.4420	0.0044479 0.0015951
6.5070	0.0041943 0.0015041
6.5720	0.0039003 0.0013987
6.6380	0.0035315 0.0012664
6.7040	0.0032764 0.0011750
6.7700	0.0029991 0.0010755
6.8370	0.0027826 0.00099790
6.9040	0.0025885 0.00092832
6.9710	0.0023790 0.00085319
7.0380	0.0022183 0.00079553
7.1060	0.0019934 0.00071490
7.1750	0.0018800 0.00067422
7.2400	0.0018430 0.00066096
7.3060	0.0017124 0.00061413
